Folder: human_enamel_mesoscale_variation/Sample1/DataProcessing

Note: README.md
# human_enamel_mesoscale_variation

File: Si_17keV_dbl60s_005.txt
/Users/robertfree/Desktop/G2_OE3_calibration/Si_17keV_dbl60s_005.tif: Azimuth/2-theta
2-Theta Angle (Degrees)

       1482
 0.0876484  0.0000000E+00
 0.185036  0.0000000E+00
 0.282423  0.0000000E+00
 0.37981  0.0000000E+00
 0.477197  11.0011
 0.574584  14.002
 0.671971  0.0000000E+00
 0.769358  0.0000000E+00
 0.866745  14.0047
 0.964132  8.21915
 1.06152  11.0056
 1.15891  0.0000000E+00
 1.25629  13.0092
 1.35368  10.1971
 1.45107  10.0095
 1.54846  13.0141
 1.64584  11.0135
 1.74323  12.0165
 1.84062  11.4497
 1.938  9.61509
 2.03539  12.0225
 2.13278  10.27
 2.23016  11.7118
 2.32755  11.6828
 2.42494  8.02136
 2.52233  14.0792
 2.61971  12.9972
 2.7171  12.5319
 2.81449  18.0648
 2.91188  13.9929
 3.00926  12.7237
 3.10665  14.6261
 3.20404  13.2321
 3.30142  15.5038
 3.39881  16.4858
 3.4962  16.2531
 3.59358  10.3214
 3.69097  13.6564
 3.78836  15.7619
 3.88575  15.6676
 3.98313  16.7477
 4.08052  16.6852
 4.17791  16.0792
 4.27529  13.6441
 4.37268  16.4571
 4.47007  12.6146
 4.56746  15.3352
 4.66484  14.7553
 4.76223  12.1981
 4.85962  13.2643
 4.957  14.191
 5.05439  15.6376
 5.15178  17.127
 5.24917  12.3895
 5.34655  15.6576
 5.44394  14.5248
 5.54133  14.1979
 5.63871  13.1727
 5.7361  12.614
 5.83349  11.7666
 5.93088  13.57
 6.02826  11.928
 6.12565  12.5537
 6.22304  14.1945
 6.32042  14.012
 6.41781  12.1958
 6.5152  14.2876
 6.61259  13.5149
 6.70997  13.7051
 6.80736  12.1059
 6.90475  14.2821
 7.00213  13.0324
 7.09952  12.8054
 7.19691  13.9979
 7.2943  10.55
 7.39168  13.4754
 7.48907  12.2862
 7.58646  12.5255
 7.68384  12.5488
 7.78123  14.0136
 7.87862  13.9578
 7.97601  13.2667
 8.07339  12.3487
 8.17078  11.9604
 8.26817  13.4388
 8.36555  12.3429
 8.46294  11.4764
 8.56033  13.1753
 8.65771  12.1731
 8.7551  12.965
 8.85249  14.2459
 8.94988  11.9985
 9.04726  12.8071
 9.14465  15.9825
 9.24204  13.2074
 9.33943  13.242
 9.43681  13.5264
 9.5342  10.859
 9.63159  13.9231
 9.72897  12.7032
 9.82636  13.4121
 9.92375  12.8718
 10.0211  12.5947
 10.1185  11.5105
 10.2159  12.2107
 10.3133  12.459
 10.4107  12.8631
 10.5081  12.801
 10.6055  11.9661
 10.7028  13.2568
 10.8002  12.8003
 10.8976  14.2088
 10.995  12.5376
 11.0924  12.0582
 11.1898  12.7835
 11.2872  12.3253
 11.3846  11.7857
 11.4819  12.631
 11.5793  13.9805
 11.6767  11.7754
 11.7741  12.6133
 11.8715  13.6219
 11.9689  13.166
 12.0663  12.4117
 12.1637  13.0927
 12.261  12.4789
 12.3584  12.5574
 12.4558  12.4798
 12.5532  13.313
 12.6506  13.0389
 12.748  13.977
 12.8454  12.4856
 12.9427  13.3235
 13.0401  13.0843
 13.1375  11.6154
 13.2349  13.65
 13.3323  11.9448
 13.4297  13.2495
 13.5271  11.5175
 13.6245  12.0614
 13.7218  13.2905
 13.8192  13.165
 13.9166  12.3213
 14.014  13.6706
 14.1114  13.3679
 14.2088  12.8253
 14.3062  12.4034
 14.4036  11.3396
 14.5009  13.3225
 14.5983  13.18
 14.6957  13.9114
 14.7931  12.4202
 14.8905  12.7881
 14.9879  11.8545
 15.0853  13.1897
 15.1827  13.3782
 15.28  13.2358
 15.3774  13.0826
 15.4748  13.6675
 15.5722  12.7652
 15.6696  12.6045
 15.767  12.8229
 15.8644  12.0229
 15.9618  13.1234
 16.0591  13.6006
 16.1565  13.7559
 16.2539  12.5753
 16.3513  14.1953
 16.4487  13.2312
 16.5461  14.6234
 16.6435  13.0439
 16.7408  13.0576
 16.8382  12.7524
 16.9356  13.7969
 17.033  13.1056
 17.1304  12.5844
 17.2278  14.0599
 17.3252  12.8042
 17.4226  13.2694
 17.5199  13.0447
 17.6173  13.1554
 17.7147  13.6373
 17.8121  13.9433
 17.9095  13.3721
 18.0069  13.8413
 18.1043  13.65
 18.2017  13.8004
 18.299  13.3037
 18.3964  13.6867
 18.4938  13.5605
 18.5912  12.891
 18.6886  13.6853
 18.786  15.0002
 18.8834  13.6746
 18.9808  13.3544
 19.0781  14.586
 19.1755  13.5066
 19.2729  13.1398
 19.3703  13.2447
 19.4677  13.7376
 19.5651  14.1023
 19.6625  12.6926
 19.7598  14.5374
 19.8572  14.7228
 19.9546  14.685
 20.052  14.5124
 20.1494  14.2201
 20.2468  13.629
 20.3442  13.8189
 20.4416  15.0159
 20.5389  13.6525
 20.6363  13.6444
 20.7337  13.8487
 20.8311  16.0092
 20.9285  14.1187
 21.0259  15.4293
 21.1233  12.5907
 21.2207  14.3172
 21.318  14.3766
 21.4154  13.8444
 21.5128  14.8193
 21.6102  15.7597
 21.7076  16.6545
 21.805  43.4466
 21.9024  73.9557
 21.9997  19.6326
 22.0971  15.2485
 22.1945  14.9102
 22.2919  12.7608
 22.3893  14.0592
 22.4867  13.7086
 22.5841  15.362
 22.6815  13.0274
 22.7788  13.9785
 22.8762  14.9493
 22.9736  14.5505
 23.071  14.0646
 23.1684  15.0515
 23.2658  13.9192
 23.3632  14.1551
 23.4606  14.2028
 23.5579  14.421
 23.6553  13.726
 23.7527  14.5948
 23.8501  14.998
 23.9475  14.6331
 24.0449  14.833
 24.1423  15.4251
 24.2397  15.2396
 24.337  15.03
 24.4344  14.5505
 24.5318  15.5462
 24.6292  16.3068
 24.7266  16.4854
 24.824  16.0723
 24.9214  14.4955
 25.0188  15.6134
 25.1161  14.592
 25.2135  15.5633
 25.3109  16.0755
 25.4083  16.5918
 25.5057  15.5121
 25.6031  15.5252
 25.7005  16.2539
 25.7978  15.3997
 25.8952  15.825
 25.9926  15.7879
 26.09  16.0186
 26.1874  14.3982
 26.2848  15.4595
 26.3822  15.8095
 26.4796  15.6603
 26.5769  14.8892
 26.6743  17.231
 26.7717  16.0523
 26.8691  14.9264
 26.9665  17.1166
 27.0639  16.022
 27.1613  15.5084
 27.2587  15.7041
 27.356  16.2955
 27.4534  16.3998
 27.5508  14.9736
 27.6482  16.9997
 27.7456  16.1358
 27.843  16.2469
 27.9404  16.2527
 28.0378  16.4404
 28.1351  16.4429
 28.2325  17.0915
 28.3299  17.0846
 28.4273  17.4964
 28.5247  16.2534
 28.6221  16.3509
 28.7195  16.0526
 28.8169  16.8979
 28.8558  17.1681